File: XRD-CCQD.txt
10	141
10.05	142
10.1	142
10.15	134
10.2	133
10.25	114
10.3	114
10.35	109
10.4	86
10.45	105
10.5	85
10.55	74
10.6	93
10.65	74
10.7	58
10.75	84
10.8	64
10.85	87
10.9	77
10.95	93
11	88
11.05	82
11.1	86
11.15	74
11.2	74
11.25	80
11.3	77
11.35	72
11.4	59
11.45	65
11.5	76
11.55	93
11.6	80
11.65	77
11.7	81
11.75	73
11.8	58
11.85	85
11.9	78
11.95	79
12	64
12.05	77
12.1	74
12.15	79
12.2	91
12.25	92
12.3	83
12.35	64
12.4	84
12.45	76
12.5	90
12.55	88
12.6	91
12.65	79
12.7	83
12.75	85
12.8	80
12.85	78
12.9	65
12.95	82
13	91
13.05	79
13.1	81
13.15	85
13.2	83
13.25	89
13.3	75
13.35	80
13.4	81
13.45	87
13.5	99
13.55	68
13.6	76
13.65	82
13.7	79
13.75	90
13.8	64
13.85	80
13.9	91
13.95	77
14	71
14.05	88
14.1	92
14.15	89
14.2	70
14.25	73
14.3	82
14.35	68
14.4	78
14.45	81
14.5	104
14.55	96
14.6	97
14.65	78
14.7	84
14.75	69
14.8	79
14.85	85
14.9	83
14.95	68
15	66
15.05	70
15.1	64
15.15	79
15.2	77
15.25	71
15.3	57
15.35	74
15.4	59
15.45	61
15.5	80
15.55	81
15.6	68
15.65	84
15.7	62
15.75	72
15.8	85
15.85	66
15.9	81
15.95	65
16	76
16.05	59
16.1	67
16.15	71
16.2	80
16.25	75
16.3	78
16.35	72
16.4	76
16.45	61
16.5	68
16.55	71
16.6	66
16.65	79
16.7	78
16.75	67
16.8	61
16.85	65
16.9	73
16.95	69
17	65
17.05	79
17.1	80
17.15	67
17.2	72
17.25	81
17.3	65
17.35	60
17.4	73
17.45	86
17.5	78
17.55	76
17.6	62
17.65	62
17.7	62
17.75	66
17.8	67
17.85	78
17.9	79
17.95	76
18	61
18.05	65
18.1	83
18.15	74
18.2	64
18.25	69
18.3	57
18.35	70
18.4	67
18.45	64
18.5	64
18.55	59
18.6	63
18.65	75
18.7	77
18.75	65
18.8	61
18.85	87
18.9	68
18.95	65
19	77
19.05	64
19.1	71
19.15	73
19.2	83
19.25	58
19.3	65
19.35	81
19.4	82
19.45	80
19.5	72
19.55	66
19.6	68
19.65	68
19.7	72
19.75	76
19.8	62
19.85	64
19.9	78
19.95	76
20	81
20.05	64
20.1	78
20.15	73
20.2	55
20.25	68
20.3	65
20.35	73
20.4	65
20.45	78
20.5	78
20.55	76
20.6	71
20.65	70
20.7	71
20.75	69
20.8	72
20.85	62
20.9	70
20.95	80
21	72
21.05	79
21.1	66
21.15	59
21.2	68
21.25	70
21.3	80
21.35	75
21.4	73
21.45	69
21.5	81
21.55	78
21.6	73
21.65	75
21.7	85
21.75	74
21.8	65
21.85	78
21.9	70
21.95	88
22	74
22.05	77
22.1	74
22.15	74
22.2	68
22.25	88
22.3	80
22.35	85
22.4	58
22.45	76
22.5	81
22.55	78
22.6	82
22.65	81
22.7	76
22.75	75
22.8	68
22.85	74
22.9	85
22.95	82
23	95
23.05	93
23.1	78
23.15	85
23.2	93
23.25	64
23.3	84
23.35	82
23.4	63
23.45	90
23.5	84
23.55	65
23.6	86
23.65	78
23.7	82
23.75	64
23.8	78
23.85	79
23.9	71
23.95	65
24	81
24.05	75
24.1	98
24.15	79
24.2	75
24.25	97
24.3	74
24.35	88
24.4	64
24.45	84
24.5	84
24.55	78
24.6	84
24.65	72
24.7	88
24.75	75
24.8	79
24.85	98
24.9	82
24.95	79
25	104
25.05	74
25.1	89
25.15	81
25.2	95
25.25	77
25.3	90
25.35	76
25.4	81
25.45	88
25.5	80
25.55	80
25.6	84
25.65	84
25.7	81
25.75	74
25.8	75
25.85	82
25.9	82
25.95	77
26	81
26.05	86
26.1	71
26.15	90
26.2	79
26.25	101
26.3	91
26.35	88
26.4	91
26.45	83
26.5	87
26.55	80
26.6	67
26.65	92
26.7	86
26.75	69
26.8	74
26.85	81
26.9	87
26.95	81
27	79
27.05	102
27.1	72
27.15	87
27.2	95
27.25	86
27.3	88
27.35	56
27.4	79
27.45	77
27.5	100
27.55	80
27.6	88
27.65	91
27.7	76
27.75	85
27.8	78
27.85	78
27.9	74
27.95	86
28	83
28.05	77
28.1	75
28.15	84
28.2	80
28.25	72
28.3	90
28.35	82
28.4	89
28.45	79
28.5	80
28.55	83
28.6	72
28.65	75
28.7	61
28.75	87
28.8	57
28.85	59
28.9	73
28.95	79
29	77
29.05	75
29.1	59
29.15	83
29.2	77
29.25	68
29.3	73
29.35	71
29.4	71
29.45	51
29.5	69
29.55	57
29.6	62
29.65	64
29.7	70
29.75	55
29.8	70
29.85	74
29.9	60
29.95	60
30	53
30.05	61
30.1	57
30.15	55
30.2	54
30.25	65
30.3	52
30.35	60
30.4	78
30.45	65
30.5	80
30.55	70
30.6	64
30.65	62
30.7	64
30.75	57
30.8	68
30.85	59
30.9	54
30.95	68
31	75
31.05	71
31.1	57
31.15	64
31.2	57
31.25	71
31.3	74
31.35	51
31.4	53
31.45	64
31.5	53
31.55	69
31.6	57
31.65	53
31.7	48
31.75	54
31.8	47
31.85	50
31.9	60
31.95	65
32	61
32.05	55
32.1	71
32.15	52
32.2	58
32.25	72
32.3	57
32.35	53
32.4	43
32.45	53
32.5	57
32.55	49
32.6	50
32.65	53
32.7	70
32.75	58
32.8	48
32.85	48
32.9	55
32.95	43
33	53
33.05	53
33.1	66
33.15	52
33.2	47
33.25	53
33.3	61
33.35	58
33.4	42
33.45	58
33.5	60
33.55	46
33.6	46
33.65	61
33.7	52
33.75	50
33.8	53
33.85	58
33.9	52
33.95	42
34	43
34.05	39
34.1	46
34.15	63
34.2	44
34.25	51
34.3	52
34.35	52
34.4	51
34.45	45
34.5	55
34.55	44
34.6	46
34.65	51
34.7	40
34.75	44
34.8	31
34.85	41
34.9	42
34.95	38
35	45
35.05	39
35.1	51
35.15	52
35.2	46
35.25	39
35.3	34
35.35	59
35.4	69
35.45	35
35.5	40
35.55	47
35.6	36
35.65	47
35.7	42
35.75	44
35.8	34
35.85	50
35.9	43
35.95	36
36	37
36.05	38
36.1	45
36.15	43
36.2	49
36.25	40
36.3	46
36.35	40
36.4	40
36.45	51
36.5	44
36.55	44
36.6	40
36.65	49
36.7	36
36.75	34
36.8	33
36.85	45
36.9	37
36.95	38
37	34
37.05	35
37.1	46
37.15	44
37.2	44
37.25	48
37.3	40
37.35	46
37.4	42
37.45	43
37.5	44
37.55	48
37.6	40
37.65	46
37.7	34
37.75	48
37.8	43
37.85	55
37.9	45
37.95	38
38	47
38.05	51
38.1	44
38.15	46
38.2	50
38.25	73
38.3	63
38.35	67
38.4	52
38.45	60
38.5	50
38.55	54
38.6	45
38.65	42
38.7	48
38.75	61
38.8	42
38.85	29
38.9	31
38.95	32
39	32
39.05	40
39.1	31
39.15	43
39.2	41
39.25	33
39.3	39
39.35	40
39.4	45
39.45	55
39.5	46
39.55	47
39.6	43
39.65	35
39.7	30
39.75	58
39.8	34
39.85	34
39.9	43
39.95	47
40	33
40.05	41
40.1	52
40.15	46
40.2	51
40.25	41
40.3	44
40.35	34
40.4	28
40.45	40
40.5	41
40.55	42
40.6	42
40.65	42
40.7	41
40.75	27
40.8	42
40.85	41
40.9	42
40.95	37
41	33
41.05	36
41.1	41
41.15	39
41.2	44
41.25	44
41.3	43
41.35	37
41.4	32
41.45	33
41.5	39
41.55	33
41.6	32
41.65	33
41.7	37
41.75	37
41.8	31
41.85	35
41.9	28
41.95	39
42	35
42.05	34
42.1	27
42.15	39
42.2	32
42.25	38
42.3	25
42.35	45
42.4	28
42.45	37
42.5	36
42.55	42
42.6	43
42.65	29
42.7	39
42.75	34
42.8	37
42.85	48
42.9	33
42.95	38
43	34
43.05	47
43.1	40
43.15	45
43.2	32
43.25	37
43.3	39
43.35	32
43.4	45
43.45	29
43.5	27
43.55	45
43.6	38
43.65	38
43.7	31
43.75	39
43.8	33
43.85	25
43.9	50
43.95	38
44	35
44.05	32
44.1	38
44.15	47
44.2	38
44.25	37
44.3	38
44.35	43
44.4	37
44.45	39
44.5	41
44.55	71
44.6	80
44.65	112
44.7	93
44.75	96
44.8	58
44.85	46
44.9	33
44.95	44
45	45
45.05	37
45.1	38
45.15	31
45.2	46
45.25	35
45.3	38
45.35	28
45.4	30
45.45	37
45.5	40
45.55	31
45.6	29
45.65	32
45.7	32
45.75	46
45.8	36
45.85	32
45.9	36
45.95	33
46	41
46.05	37
46.1	44
46.15	33
46.2	37
46.25	45
46.3	37
46.35	36
46.4	35
46.45	27
46.5	44
46.55	37
46.6	25
46.65	28
46.7	21
46.75	28
46.8	27
46.85	31
46.9	32
46.95	32
47	39
47.05	36
47.1	26
47.15	23
47.2	34
47.25	38
47.3	36
47.35	44
47.4	36
47.45	46
47.5	40
47.55	28
47.6	30
47.65	39
47.7	27
47.75	37
47.8	24
47.85	34
47.9	31
47.95	36
48	36
48.05	35
48.1	34
48.15	34
48.2	31
48.25	30
48.3	27
48.35	41
48.4	26
48.45	37
48.5	45
48.55	38
48.6	27
48.65	35
48.7	31
48.75	33
48.8	40
48.85	38
48.9	38
48.95	44
49	39
49.05	34
49.1	42
49.15	27
49.2	42
49.25	41
49.3	38
49.35	48
49.4	22
49.45	25
49.5	25
49.55	30
49.6	30
49.65	49
49.7	37
49.75	33
49.8	36
49.85	46
49.9	35
49.95	30
50	50
50.05	33
50.1	40
50.15	30
50.2	36
50.25	46
50.3	40
50.35	31
50.4	33
50.45	29
50.5	38
50.55	40
50.6	33
50.65	48
50.7	36
50.75	40
50.8	36
50.85	36
50.9	40
50.95	28
51	39
51.05	40
51.1	35
51.15	28
51.2	37
51.25	42
51.3	37
51.35	39
51.4	34
51.45	29
51.5	39
51.55	42
51.6	23
51.65	26
51.7	31
51.75	41
51.8	33
51.85	32
51.9	37
51.95	25
52	42
52.05	23
52.1	31
52.15	40
52.2	38
52.25	35
52.3	37
52.35	37
52.4	44
52.45	33
52.5	31
52.55	36
52.6	52
52.65	35
52.7	50
52.75	39
52.8	38
52.85	36
52.9	38
52.95	43
53	37
53.05	34
53.1	34
53.15	38
53.2	30
53.25	31
53.3	36
53.35	39
53.4	33
53.45	32
53.5	42
53.55	40
53.6	31
53.65	32
53.7	38
53.75	32
53.8	35
53.85	32
53.9	44
53.95	24
54	30
54.05	35
54.1	38
54.15	28
54.2	39
54.25	31
54.3	36
54.35	23
54.4	30
54.45	39
54.5	42
54.55	39
54.6	28
54.65	45
54.7	36
54.75	39
54.8	36
54.85	36
54.9	28
54.95	37
55	29
55.05	30
55.1	41
55.15	21
55.2	36
55.25	34
55.3	36
55.35	33
55.4	36
55.45	32
55.5	35
55.55	31
55.6	30
55.65	41
55.7	34
55.75	30
55.8	39
55.85	31
55.9	33
55.95	30
56	30
56.05	24
56.1	30
56.15	39
56.2	32
56.25	30
56.3	47
56.35	31
56.4	34
56.45	44
56.5	30
56.55	48
56.6	31
56.65	33
56.7	29
56.75	28
56.8	30
56.85	36
56.9	34
56.95	35
57	51
57.05	25
57.1	33
57.15	28
57.2	32
57.25	45
57.3	29
57.35	31
57.4	37
57.45	42
57.5	32
57.55	41
57.6	44
57.65	33
57.7	35
57.75	38
57.8	35
57.85	37
57.9	30
57.95	32
58	31
58.05	37
58.1	49
58.15	33
58.2	51
58.25	51
58.3	36
58.35	36
58.4	35
58.45	26
58.5	29
58.55	28
58.6	25
58.65	28
58.7	36
58.75	26
58.8	34
58.85	32
58.9	32
58.95	39
59	37
59.05	40
59.1	35
59.15	27
59.2	30
59.25	31
59.3	35
59.35	31
59.4	34
59.45	41
59.5	32
59.55	22
59.6	49
59.65	38
59.7	29
59.75	32
59.8	27
59.85	21
59.9	32
59.95	41
60	46
60.05	44
60.1	38
60.15	44
60.2	35
60.25	27
60.3	35
60.35	33
60.4	26
60.45	38
60.5	30
60.55	34
60.6	30
60.65	37
60.7	33
60.75	34
60.8	30
60.85	24
60.9	31
60.95	37
61	34
61.05	35
61.1	42
61.15	32
61.2	33
61.25	35
61.3	28
61.35	35
61.4	41
61.45	35
61.5	36
61.55	26
61.6	38
61.65	38
61.7	32
61.75	31
61.8	31
61.85	40
61.9	38
61.95	39
62	23
62.05	23
62.1	36
62.15	24
62.2	37
62.25	27
62.3	31
62.35	39
62.4	33
62.45	36
62.5	29
62.55	22
62.6	36
62.65	39
62.7	47
62.75	38
62.8	32
62.85	20
62.9	31
62.95	33
63	33
63.05	27
63.1	31
63.15	31
63.2	30
63.25	30
63.3	27
63.35	26
63.4	28
63.45	26
63.5	25
63.55	19
63.6	31
63.65	31
63.7	25
63.75	25
63.8	42
63.85	37
63.9	31
63.95	29
64	34
64.05	30
64.1	34
64.15	30
64.2	30
64.25	33
64.3	22
64.35	34
64.4	35
64.45	20
64.5	37
64.55	37
64.6	35
64.65	26
64.7	28
64.75	36
64.8	36
64.85	25
64.9	30
64.95	33
65	30
65.05	41
65.1	26
65.15	28
65.2	29
65.25	29
65.3	34
65.35	34
65.4	24
65.45	25
65.5	25
65.55	43
65.6	29
65.65	23
65.7	31
65.75	27
65.8	35
65.85	19
65.9	19
65.95	21
66	25
66.05	34
66.1	26
66.15	31
66.2	28
66.25	27
66.3	28
66.35	36
66.4	36
66.45	33
66.5	26
66.55	37
66.6	35
66.65	37
66.7	19
66.75	32
66.8	22
66.85	30
66.9	26
66.95	19
67	35
67.05	32
67.1	22
67.15	32
67.2	19
67.25	25
67.3	36
67.35	26
67.4	28
67.45	36
67.5	27
67.55	28
67.6	37
67.65	30
67.7	27
67.75	25
67.8	34
67.85	20
67.9	32
67.95	38
68	50
68.05	29
68.1	26
68.15	34
68.2	31
68.25	27
68.3	17
68.35	28
68.4	36
68.45	16
68.5	21
68.55	26
68.6	21
68.65	31
68.7	26
68.75	29
68.8	23
68.85	27
68.9	24
68.95	30
69	25
69.05	23
69.1	38
69.15	21
69.2	22
69.25	28
69.3	26
69.35	26
69.4	20
69.45	34
69.5	22
69.55	35
69.6	16
69.65	33
69.7	23
69.75	31
69.8	23
69.85	25
69.9	23
69.95	31
70	28
70.05	28
70.1	35
70.15	27
70.2	31
70.25	23
70.3	31
70.35	25
70.4	26
70.45	17
70.5	23
70.55	20
70.6	23
70.65	32
70.7	24
70.75	23
70.8	28
70.85	29
70.9	29
70.95	25
71	29
71.05	40
71.1	28
71.15	31
71.2	16
71.25	22
71.3	25
71.35	30
71.4	25
71.45	33
71.5	30
71.55	32
71.6	26
71.65	26
71.7	22
71.75	36
71.8	28
71.85	22
71.9	34
71.95	15
72	27
72.05	31
72.1	25
72.15	27
72.2	34
72.25	29
72.3	28
72.35	17
72.4	36
72.45	26
72.5	36
72.55	24
72.6	26
72.65	17
72.7	19
72.75	19
72.8	28
72.85	27
72.9	23
72.95	25
73	20
73.05	27
73.1	31
73.15	28
73.2	19
73.25	29
73.3	29
73.35	21
73.4	24
73.45	26
73.5	35
73.55	28
73.6	31
73.65	32
73.7	31
73.75	30
73.8	21
73.85	16
73.9	19
73.95	31
74	31
74.05	25
74.1	23
74.15	18
74.2	22
74.25	28
74.3	31
74.35	21
74.4	24
74.45	26
74.5	22
74.55	15
74.6	24
74.65	23
74.7	26
74.75	25
74.8	19
74.85	23
74.9	31
74.95	29
75	24
75.05	36
75.1	37
75.15	24
75.2	28
75.25	36
75.3	22
75.35	27
75.4	22
75.45	19
75.5	23
75.55	20
75.6	29
75.65	30
75.7	31
75.75	25
75.8	21
75.85	38
75.9	35
75.95	28
76	23
76.05	25
76.1	31
76.15	19
76.2	29
76.25	23
76.3	30
76.35	24
76.4	17
76.45	28
76.5	21
76.55	18
76.6	24
76.65	24
76.7	33
76.75	22
76.8	22
76.85	32
76.9	30
76.95	23
77	26
77.05	31
77.1	28
77.15	28
77.2	17
77.25	29
77.3	16
77.35	20
77.4	27
77.45	18
77.5	22
77.55	23
77.6	26
77.65	32
77.7	28
77.75	24
77.8	18
77.85	23
77.9	26
77.95	30
78	32
78.05	18
78.1	38
78.15	42
78.2	32
78.25	38
78.3	32
78.35	42
78.4	35
78.45	32
78.5	23
78.55	27
78.6	25
78.65	21
78.7	32
78.75	19
78.8	23
78.85	16
78.9	28
78.95	29
79	28
79.05	27
79.1	27
79.15	24
79.2	27
79.25	27
79.3	24
79.35	21
79.4	16
79.45	22
79.5	23
79.55	30
79.6	22
79.65	19
79.7	32
79.75	19
79.8	24
79.85	28
79.9	28
79.95	26
80	29