File: XRD-RCQD.txt
10	152
10.05	155
10.1	147
10.15	135
10.2	138
10.25	123
10.3	106
10.35	102
10.4	105
10.45	87
10.5	73
10.55	78
10.6	60
10.65	66
10.7	65
10.75	54
10.8	54
10.85	70
10.9	70
10.95	59
11	55
11.05	57
11.1	72
11.15	57
11.2	64
11.25	69
11.3	70
11.35	69
11.4	66
11.45	69
11.5	76
11.55	72
11.6	65
11.65	51
11.7	56
11.75	78
11.8	51
11.85	63
11.9	68
11.95	39
12	65
12.05	75
12.1	64
12.15	69
12.2	57
12.25	61
12.3	82
12.35	66
12.4	67
12.45	70
12.5	69
12.55	82
12.6	65
12.65	69
12.7	71
12.75	64
12.8	80
12.85	57
12.9	68
12.95	69
13	74
13.05	89
13.1	75
13.15	77
13.2	76
13.25	61
13.3	70
13.35	72
13.4	70
13.45	93
13.5	79
13.55	83
13.6	75
13.65	92
13.7	90
13.75	75
13.8	70
13.85	72
13.9	90
13.95	100
14	89
14.05	78
14.1	76
14.15	69
14.2	94
14.25	99
14.3	107
14.35	101
14.4	101
14.45	93
14.5	75
14.55	82
14.6	87
14.65	74
14.7	76
14.75	80
14.8	72
14.85	80
14.9	70
14.95	92
15	80
15.05	73
15.1	73
15.15	88
15.2	67
15.25	56
15.3	60
15.35	78
15.4	67
15.45	76
15.5	75
15.55	63
15.6	79
15.65	92
15.7	90
15.75	86
15.8	77
15.85	84
15.9	65
15.95	91
16	73
16.05	78
16.1	85
16.15	69
16.2	73
16.25	70
16.3	66
16.35	90
16.4	83
16.45	65
16.5	79
16.55	68
16.6	73
16.65	97
16.7	90
16.75	92
16.8	82
16.85	70
16.9	82
16.95	74
17	80
17.05	84
17.1	81
17.15	76
17.2	73
17.25	82
17.3	66
17.35	74
17.4	71
17.45	52
17.5	66
17.55	83
17.6	77
17.65	102
17.7	81
17.75	82
17.8	66
17.85	85
17.9	67
17.95	73
18	75
18.05	73
18.1	73
18.15	70
18.2	68
18.25	75
18.3	82
18.35	75
18.4	88
18.45	78
18.5	58
18.55	66
18.6	80
18.65	74
18.7	75
18.75	68
18.8	81
18.85	86
18.9	92
18.95	94
19	75
19.05	69
19.1	69
19.15	60
19.2	71
19.25	77
19.3	82
19.35	74
19.4	84
19.45	85
19.5	71
19.55	79
19.6	94
19.65	73
19.7	86
19.75	83
19.8	95
19.85	89
19.9	101
19.95	88
20	98
20.05	95
20.1	92
20.15	76
20.2	92
20.25	107
20.3	103
20.35	108
20.4	103
20.45	127
20.5	101
20.55	103
20.6	128
20.65	109
20.7	134
20.75	126
20.8	128
20.85	158
20.9	178
20.95	207
21	205
21.05	168
21.1	162
21.15	151
21.2	141
21.25	144
21.3	178
21.35	250
21.4	185
21.45	177
21.5	137
21.55	167
21.6	214
21.65	284
21.7	304
21.75	234
21.8	178
21.85	126
21.9	106
21.95	110
22	117
22.05	110
22.1	113
22.15	137
22.2	134
22.25	131
22.3	188
22.35	186
22.4	117
22.45	108
22.5	90
22.55	73
22.6	94
22.65	82
22.7	94
22.75	91
22.8	91
22.85	103
22.9	114
22.95	112
23	120
23.05	135
23.1	106
23.15	121
23.2	92
23.25	86
23.3	86
23.35	78
23.4	73
23.45	66
23.5	82
23.55	90
23.6	88
23.65	89
23.7	74
23.75	97
23.8	92
23.85	87
23.9	72
23.95	97
24	80
24.05	89
24.1	97
24.15	98
24.2	106
24.25	110
24.3	113
24.35	93
24.4	92
24.45	79
24.5	99
24.55	68
24.6	74
24.65	76
24.7	77
24.75	81
24.8	56
24.85	66
24.9	67
24.95	84
25	91
25.05	69
25.1	71
25.15	66
25.2	75
25.25	63
25.3	88
25.35	87
25.4	85
25.45	81
25.5	58
25.55	83
25.6	67
25.65	69
25.7	73
25.75	68
25.8	51
25.85	59
25.9	55
25.95	60
26	51
26.05	60
26.1	73
26.15	59
26.2	67
26.25	64
26.3	63
26.35	54
26.4	51
26.45	60
26.5	53
26.55	72
26.6	58
26.65	41
26.7	54
26.75	74
26.8	42
26.85	65
26.9	50
26.95	60
27	73
27.05	65
27.1	71
27.15	61
27.2	60
27.25	74
27.3	65
27.35	61
27.4	52
27.45	55
27.5	50
27.55	55
27.6	42
27.65	49
27.7	66
27.75	57
27.8	43
27.85	58
27.9	50
27.95	66
28	62
28.05	57
28.1	48
28.15	48
28.2	68
28.25	64
28.3	54
28.35	49
28.4	51
28.45	65
28.5	57
28.55	59
28.6	40
28.65	49
28.7	67
28.75	60
28.8	54
28.85	63
28.9	41
28.95	49
29	53
29.05	49
29.1	48
29.15	54
29.2	49
29.25	54
29.3	56
29.35	61
29.4	87
29.45	75
29.5	67
29.55	74
29.6	52
29.65	59
29.7	58
29.75	66
29.8	53
29.85	53
29.9	60
29.95	62
30	62
30.05	53
30.1	63
30.15	52
30.2	37
30.25	49
30.3	64
30.35	45
30.4	59
30.45	51
30.5	62
30.55	54
30.6	46
30.65	58
30.7	47
30.75	49
30.8	50
30.85	54
30.9	59
30.95	60
31	80
31.05	74
31.1	60
31.15	59
31.2	50
31.25	47
31.3	60
31.35	47
31.4	64
31.45	64
31.5	52
31.55	49
31.6	56
31.65	48
31.7	45
31.75	41
31.8	48
31.85	48
31.9	47
31.95	58
32	55
32.05	53
32.1	58
32.15	52
32.2	49
32.25	56
32.3	37
32.35	41
32.4	52
32.45	50
32.5	49
32.55	39
32.6	49
32.65	40
32.7	48
32.75	41
32.8	53
32.85	47
32.9	34
32.95	34
33	40
33.05	44
33.1	47
33.15	41
33.2	47
33.25	42
33.3	40
33.35	48
33.4	47
33.45	47
33.5	35
33.55	40
33.6	48
33.65	38
33.7	49
33.75	49
33.8	52
33.85	48
33.9	52
33.95	46
34	29
34.05	37
34.1	39
34.15	43
34.2	45
34.25	43
34.3	46
34.35	38
34.4	41
34.45	54
34.5	47
34.55	62
34.6	52
34.65	42
34.7	36
34.75	35
34.8	48
34.85	41
34.9	42
34.95	38
35	50
35.05	51
35.1	34
35.15	41
35.2	50
35.25	45
35.3	35
35.35	35
35.4	35
35.45	38
35.5	60
35.55	39
35.6	56
35.65	53
35.7	48
35.75	50
35.8	61
35.85	65
35.9	61
35.95	55
36	42
36.05	48
36.1	41
36.15	41
36.2	39
36.25	40
36.3	43
36.35	38
36.4	39
36.45	41
36.5	31
36.55	39
36.6	33
36.65	45
36.7	41
36.75	42
36.8	29
36.85	43
36.9	36
36.95	35
37	38
37.05	42
37.1	52
37.15	45
37.2	43
37.25	47
37.3	42
37.35	44
37.4	45
37.45	42
37.5	40
37.55	40
37.6	54
37.65	47
37.7	48
37.75	41
37.8	44
37.85	54
37.9	55
37.95	57
38	53
38.05	50
38.1	62
38.15	67
38.2	90
38.25	139
38.3	221
38.35	471
38.4	809
38.45	827
38.5	652
38.55	393
38.6	176
38.65	79
38.7	83
38.75	65
38.8	46
38.85	40
38.9	41
38.95	65
39	41
39.05	45
39.1	43
39.15	43
39.2	41
39.25	55
39.3	45
39.35	35
39.4	36
39.45	41
39.5	39
39.55	47
39.6	37
39.65	45
39.7	32
39.75	32
39.8	46
39.85	34
39.9	35
39.95	40
40	34
40.05	46
40.1	39
40.15	33
40.2	41
40.25	41
40.3	30
40.35	41
40.4	50
40.45	42
40.5	46
40.55	41
40.6	43
40.65	52
40.7	58
40.75	43
40.8	46
40.85	35
40.9	35
40.95	43
41	40
41.05	38
41.1	45
41.15	39
41.2	38
41.25	34
41.3	45
41.35	34
41.4	37
41.45	48
41.5	36
41.55	38
41.6	36
41.65	42
41.7	45
41.75	35
41.8	49
41.85	34
41.9	40
41.95	46
42	37
42.05	42
42.1	26
42.15	43
42.2	35
42.25	29
42.3	38
42.35	31
42.4	42
42.45	34
42.5	31
42.55	52
42.6	45
42.65	47
42.7	39
42.75	27
42.8	43
42.85	33
42.9	35
42.95	35
43	38
43.05	39
43.1	40
43.15	43
43.2	53
43.25	45
43.3	43
43.35	50
43.4	37
43.45	43
43.5	44
43.55	42
43.6	38
43.65	38
43.7	38
43.75	39
43.8	48
43.85	42
43.9	30
43.95	24
44	35
44.05	33
44.1	32
44.15	40
44.2	37
44.25	46
44.3	47
44.35	56
44.4	68
44.45	91
44.5	144
44.55	271
44.6	428
44.65	602
44.7	532
44.75	443
44.8	320
44.85	186
44.9	106
44.95	78
45	47
45.05	49
45.1	48
45.15	41
45.2	52
45.25	52
45.3	52
45.35	37
45.4	40
45.45	42
45.5	51
45.55	40
45.6	57
45.65	46
45.7	43
45.75	45
45.8	48
45.85	35
45.9	54
45.95	41
46	50
46.05	35
46.1	31
46.15	32
46.2	40
46.25	38
46.3	58
46.35	44
46.4	43
46.45	29
46.5	46
46.55	41
46.6	48
46.65	41
46.7	46
46.75	28
46.8	36
46.85	35
46.9	38
46.95	43
47	32
47.05	36
47.1	31
47.15	47
47.2	43
47.25	39
47.3	34
47.35	40
47.4	35
47.45	43
47.5	37
47.55	41
47.6	43
47.65	39
47.7	39
47.75	41
47.8	32
47.85	38
47.9	31
47.95	34
48	38
48.05	29
48.1	43
48.15	40
48.2	38
48.25	38
48.3	37
48.35	37
48.4	44
48.45	39
48.5	54
48.55	33
48.6	42
48.65	41
48.7	37
48.75	33
48.8	43
48.85	44
48.9	41
48.95	33
49	24
49.05	29
49.1	39
49.15	36
49.2	43
49.25	52
49.3	35
49.35	42
49.4	51
49.45	36
49.5	33
49.55	33
49.6	34
49.65	43
49.7	39
49.75	32
49.8	34
49.85	22
49.9	40
49.95	33
50	28
50.05	33
50.1	32
50.15	26
50.2	36
50.25	26
50.3	31
50.35	37
50.4	32
50.45	33
50.5	27
50.55	33
50.6	40
50.65	32
50.7	30
50.75	19
50.8	38
50.85	22
50.9	22
50.95	35
51	29
51.05	28
51.1	32
51.15	27
51.2	30
51.25	31
51.3	29
51.35	28
51.4	23
51.45	21
51.5	27
51.55	30
51.6	32
51.65	34
51.7	23
51.75	34
51.8	25
51.85	30
51.9	40
51.95	35
52	40
52.05	39
52.1	39
52.15	36
52.2	33
52.25	30
52.3	18
52.35	26
52.4	33
52.45	32
52.5	29
52.55	35
52.6	24
52.65	34
52.7	33
52.75	40
52.8	26
52.85	27
52.9	30
52.95	27
53	33
53.05	36
53.1	25
53.15	28
53.2	37
53.25	24
53.3	25
53.35	27
53.4	36
53.45	30
53.5	33
53.55	41
53.6	23
53.65	39
53.7	28
53.75	50
53.8	35
53.85	36
53.9	31
53.95	29
54	25
54.05	30
54.1	24
54.15	32
54.2	30
54.25	35
54.3	29
54.35	38
54.4	27
54.45	34
54.5	26
54.55	23
54.6	27
54.65	29
54.7	25
54.75	21
54.8	18
54.85	27
54.9	29
54.95	23
55	30
55.05	22
55.1	41
55.15	25
55.2	33
55.25	26
55.3	36
55.35	26
55.4	32
55.45	31
55.5	27
55.55	21
55.6	32
55.65	26
55.7	27
55.75	26
55.8	24
55.85	15
55.9	27
55.95	25
56	31
56.05	29
56.1	32
56.15	26
56.2	29
56.25	23
56.3	32
56.35	28
56.4	29
56.45	26
56.5	25
56.55	28
56.6	34
56.65	26
56.7	26
56.75	33
56.8	25
56.85	30
56.9	29
56.95	30
57	19
57.05	28
57.1	26
57.15	33
57.2	30
57.25	26
57.3	27
57.35	18
57.4	22
57.45	23
57.5	32
57.55	25
57.6	24
57.65	25
57.7	43
57.75	28
57.8	24
57.85	21
57.9	29
57.95	21
58	27
58.05	37
58.1	23
58.15	35
58.2	27
58.25	30
58.3	15
58.35	17
58.4	35
58.45	26
58.5	30
58.55	26
58.6	19
58.65	25
58.7	21
58.75	23
58.8	18
58.85	26
58.9	23
58.95	27
59	17
59.05	21
59.1	27
59.15	20
59.2	26
59.25	16
59.3	27
59.35	26
59.4	24
59.45	23
59.5	21
59.55	34
59.6	23
59.65	23
59.7	35
59.75	21
59.8	35
59.85	18
59.9	26
59.95	22
60	25
60.05	19
60.1	24
60.15	24
60.2	26
60.25	29
60.3	25
60.35	23
60.4	25
60.45	31
60.5	32
60.55	21
60.6	36
60.65	26
60.7	21
60.75	30
60.8	21
60.85	28
60.9	27
60.95	34
61	32
61.05	27
61.1	20
61.15	26
61.2	26
61.25	17
61.3	26
61.35	27
61.4	21
61.45	32
61.5	13
61.55	33
61.6	25
61.65	25
61.7	19
61.75	27
61.8	20
61.85	31
61.9	19
61.95	38
62	26
62.05	31
62.1	26
62.15	30
62.2	29
62.25	22
62.3	23
62.35	23
62.4	27
62.45	21
62.5	19
62.55	28
62.6	21
62.65	17
62.7	14
62.75	26
62.8	19
62.85	28
62.9	21
62.95	23
63	20
63.05	29
63.1	19
63.15	13
63.2	24
63.25	19
63.3	22
63.35	21
63.4	18
63.45	25
63.5	26
63.55	23
63.6	24
63.65	23
63.7	24
63.75	30
63.8	40
63.85	27
63.9	27
63.95	31
64	38
64.05	36
64.1	30
64.15	26
64.2	18
64.25	31
64.3	26
64.35	28
64.4	27
64.45	21
64.5	32
64.55	23
64.6	17
64.65	28
64.7	33
64.75	30
64.8	42
64.85	45
64.9	44
64.95	60
65	85
65.05	96
65.1	102
65.15	82
65.2	74
65.25	64
65.3	62
65.35	44
65.4	23
65.45	43
65.5	22
65.55	27
65.6	23
65.65	22
65.7	24
65.75	28
65.8	33
65.85	29
65.9	28
65.95	33
66	31
66.05	28
66.1	24
66.15	24
66.2	27
66.25	33
66.3	21
66.35	31
66.4	24
66.45	33
66.5	19
66.55	28
66.6	29
66.65	24
66.7	16
66.75	31
66.8	27
66.85	30
66.9	17
66.95	20
67	24
67.05	20
67.1	19
67.15	25
67.2	27
67.25	17
67.3	25
67.35	20
67.4	24
67.45	28
67.5	35
67.55	29
67.6	26
67.65	27
67.7	18
67.75	24
67.8	28
67.85	27
67.9	22
67.95	23
68	27
68.05	18
68.1	19
68.15	25
68.2	22
68.25	23
68.3	22
68.35	21
68.4	26
68.45	19
68.5	18
68.55	22
68.6	21
68.65	18
68.7	23
68.75	21
68.8	17
68.85	16
68.9	23
68.95	20
69	29
69.05	23
69.1	17
69.15	24
69.2	18
69.25	23
69.3	15
69.35	24
69.4	18
69.45	21
69.5	24
69.55	24
69.6	25
69.65	23
69.7	21
69.75	27
69.8	23
69.85	23
69.9	20
69.95	20
70	25
70.05	25
70.1	27
70.15	24
70.2	22
70.25	22
70.3	20
70.35	27
70.4	22
70.45	31
70.5	19
70.55	25
70.6	18
70.65	39
70.7	19
70.75	11
70.8	20
70.85	24
70.9	20
70.95	20
71	31
71.05	21
71.1	22
71.15	26
71.2	22
71.25	24
71.3	22
71.35	24
71.4	24
71.45	11
71.5	24
71.55	23
71.6	18
71.65	23
71.7	28
71.75	21
71.8	36
71.85	23
71.9	20
71.95	11
72	28
72.05	25
72.1	18
72.15	30
72.2	32
72.25	28
72.3	27
72.35	21
72.4	27
72.45	15
72.5	22
72.55	22
72.6	20
72.65	19
72.7	18
72.75	24
72.8	23
72.85	16
72.9	25
72.95	21
73	30
73.05	21
73.1	22
73.15	35
73.2	19
73.25	23
73.3	17
73.35	19
73.4	23
73.45	15
73.5	27
73.55	21
73.6	24
73.65	25
73.7	18
73.75	26
73.8	21
73.85	20
73.9	19
73.95	19
74	22
74.05	21
74.1	27
74.15	13
74.2	28
74.25	24
74.3	22
74.35	27
74.4	22
74.45	20
74.5	27
74.55	24
74.6	23
74.65	19
74.7	23
74.75	27
74.8	19
74.85	25
74.9	22
74.95	22
75	20
75.05	22
75.1	21
75.15	19
75.2	25
75.25	21
75.3	18
75.35	20
75.4	21
75.45	23
75.5	24
75.55	21
75.6	23
75.65	23
75.7	17
75.75	15
75.8	21
75.85	29
75.9	14
75.95	20
76	19
76.05	18
76.1	17
76.15	29
76.2	20
76.25	19
76.3	17
76.35	24
76.4	24
76.45	20
76.5	18
76.55	24
76.6	20
76.65	14
76.7	32
76.75	21
76.8	30
76.85	18
76.9	16
76.95	23
77	23
77.05	23
77.1	20
77.15	17
77.2	19
77.25	16
77.3	31
77.35	28
77.4	22
77.45	29
77.5	28
77.55	24
77.6	25
77.65	23
77.7	25
77.75	23
77.8	17
77.85	17
77.9	26
77.95	38
78	38
78.05	65
78.1	103
78.15	128
78.2	137
78.25	88
78.3	93
78.35	108
78.4	88
78.45	92
78.5	59
78.55	39
78.6	29
78.65	38
78.7	26
78.75	28
78.8	19
78.85	29
78.9	24
78.95	31
79	23
79.05	27
79.1	27
79.15	19
79.2	19
79.25	14
79.3	18
79.35	24
79.4	25
79.45	21
79.5	22
79.55	16
79.6	24
79.65	13
79.7	26
79.75	15
79.8	21
79.85	24
79.9	26
79.95	27
80	17