File: XRD-YCQD.txt
10	207
10.05	217
10.1	218
10.15	183
10.2	169
10.25	164
10.3	146
10.35	161
10.4	149
10.45	117
10.5	111
10.55	97
10.6	111
10.65	76
10.7	85
10.75	102
10.8	84
10.85	87
10.9	92
10.95	85
11	96
11.05	92
11.1	77
11.15	71
11.2	89
11.25	102
11.3	74
11.35	81
11.4	61
11.45	98
11.5	62
11.55	92
11.6	72
11.65	79
11.7	94
11.75	81
11.8	82
11.85	70
11.9	64
11.95	48
12	82
12.05	88
12.1	82
12.15	85
12.2	87
12.25	80
12.3	72
12.35	85
12.4	89
12.45	92
12.5	86
12.55	87
12.6	74
12.65	60
12.7	68
12.75	82
12.8	77
12.85	86
12.9	89
12.95	88
13	89
13.05	89
13.1	90
13.15	80
13.2	84
13.25	89
13.3	94
13.35	82
13.4	87
13.45	91
13.5	97
13.55	93
13.6	95
13.65	95
13.7	105
13.75	84
13.8	113
13.85	95
13.9	91
13.95	93
14	76
14.05	94
14.1	103
14.15	91
14.2	99
14.25	71
14.3	112
14.35	94
14.4	105
14.45	88
14.5	88
14.55	87
14.6	100
14.65	86
14.7	113
14.75	78
14.8	83
14.85	91
14.9	77
14.95	100
15	94
15.05	75
15.1	85
15.15	79
15.2	101
15.25	85
15.3	102
15.35	96
15.4	97
15.45	90
15.5	99
15.55	98
15.6	93
15.65	89
15.7	97
15.75	76
15.8	93
15.85	112
15.9	93
15.95	95
16	108
16.05	103
16.1	92
16.15	104
16.2	106
16.25	89
16.3	110
16.35	94
16.4	108
16.45	66
16.5	89
16.55	109
16.6	115
16.65	84
16.7	96
16.75	108
16.8	86
16.85	98
16.9	119
16.95	97
17	101
17.05	117
17.1	102
17.15	116
17.2	108
17.25	116
17.3	107
17.35	147
17.4	157
17.45	108
17.5	113
17.55	145
17.6	139
17.65	204
17.7	221
17.75	192
17.8	161
17.85	144
17.9	116
17.95	114
18	125
18.05	90
18.1	115
18.15	124
18.2	101
18.25	121
18.3	86
18.35	105
18.4	120
18.45	100
18.5	112
18.55	96
18.6	118
18.65	85
18.7	98
18.75	93
18.8	102
18.85	101
18.9	101
18.95	110
19	107
19.05	105
19.1	100
19.15	94
19.2	114
19.25	101
19.3	103
19.35	94
19.4	109
19.45	118
19.5	154
19.55	190
19.6	248
19.65	216
19.7	175
19.75	135
19.8	118
19.85	113
19.9	106
19.95	98
20	102
20.05	102
20.1	100
20.15	102
20.2	114
20.25	117
20.3	106
20.35	94
20.4	112
20.45	114
20.5	114
20.55	97
20.6	93
20.65	112
20.7	116
20.75	111
20.8	123
20.85	106
20.9	99
20.95	96
21	116
21.05	127
21.1	101
21.15	98
21.2	101
21.25	114
21.3	101
21.35	98
21.4	102
21.45	92
21.5	98
21.55	120
21.6	124
21.65	118
21.7	87
21.75	98
21.8	101
21.85	104
21.9	93
21.95	87
22	90
22.05	109
22.1	100
22.15	102
22.2	130
22.25	122
22.3	120
22.35	148
22.4	132
22.45	131
22.5	133
22.55	124
22.6	122
22.65	116
22.7	107
22.75	115
22.8	115
22.85	110
22.9	97
22.95	126
23	137
23.05	143
23.1	157
23.15	153
23.2	135
23.25	131
23.3	151
23.35	118
23.4	112
23.45	135
23.5	119
23.55	124
23.6	110
23.65	119
23.7	132
23.75	97
23.8	109
23.85	88
23.9	114
23.95	112
24	99
24.05	95
24.1	113
24.15	107
24.2	135
24.25	109
24.3	111
24.35	98
24.4	105
24.45	118
24.5	103
24.55	108
24.6	116
24.65	109
24.7	95
24.75	110
24.8	94
24.85	108
24.9	97
24.95	118
25	104
25.05	104
25.1	94
25.15	102
25.2	100
25.25	97
25.3	111
25.35	90
25.4	114
25.45	101
25.5	113
25.55	116
25.6	113
25.65	106
25.7	103
25.75	135
25.8	127
25.85	125
25.9	125
25.95	137
26	148
26.05	170
26.1	169
26.15	163
26.2	161
26.25	180
26.3	163
26.35	151
26.4	152
26.45	158
26.5	165
26.55	146
26.6	122
26.65	126
26.7	133
26.75	134
26.8	134
26.85	138
26.9	124
26.95	133
27	125
27.05	124
27.1	130
27.15	148
27.2	120
27.25	106
27.3	100
27.35	114
27.4	121
27.45	103
27.5	109
27.55	122
27.6	106
27.65	79
27.7	105
27.75	100
27.8	86
27.85	95
27.9	105
27.95	102
28	112
28.05	100
28.1	125
28.15	103
28.2	89
28.25	106
28.3	142
28.35	155
28.4	148
28.45	163
28.5	123
28.55	118
28.6	101
28.65	113
28.7	107
28.75	100
28.8	121
28.85	87
28.9	105
28.95	98
29	87
29.05	116
29.1	106
29.15	94
29.2	105
29.25	88
29.3	114
29.35	123
29.4	105
29.45	114
29.5	127
29.55	119
29.6	120
29.65	103
29.7	134
29.75	130
29.8	110
29.85	107
29.9	116
29.95	97
30	144
30.05	136
30.1	140
30.15	157
30.2	137
30.25	130
30.3	140
30.35	179
30.4	150
30.45	178
30.5	156
30.55	173
30.6	173
30.65	200
30.7	212
30.75	221
30.8	244
30.85	281
30.9	283
30.95	267
31	249
31.05	231
31.1	220
31.15	223
31.2	206
31.25	188
31.3	215
31.35	185
31.4	191
31.45	167
31.5	159
31.55	177
31.6	159
31.65	178
31.7	145
31.75	188
31.8	176
31.85	198
31.9	226
31.95	217
32	220
32.05	196
32.1	206
32.15	187
32.2	156
32.25	141
32.3	154
32.35	137
32.4	161
32.45	138
32.5	140
32.55	120
32.6	143
32.65	117
32.7	148
32.75	142
32.8	149
32.85	155
32.9	169
32.95	167
33	175
33.05	167
33.1	150
33.15	139
33.2	142
33.25	134
33.3	141
33.35	140
33.4	150
33.45	153
33.5	123
33.55	134
33.6	121
33.65	107
33.7	117
33.75	112
33.8	124
33.85	119
33.9	99
33.95	133
34	116
34.05	118
34.1	118
34.15	109
34.2	109
34.25	94
34.3	112
34.35	116
34.4	101
34.45	109
34.5	108
34.55	113
34.6	108
34.65	119
34.7	107
34.75	96
34.8	99
34.85	97
34.9	90
34.95	84
35	75
35.05	74
35.1	75
35.15	97
35.2	77
35.25	73
35.3	81
35.35	74
35.4	92
35.45	81
35.5	71
35.55	80
35.6	75
35.65	95
35.7	88
35.75	83
35.8	69
35.85	85
35.9	86
35.95	82
36	86
36.05	62
36.1	74
36.15	76
36.2	83
36.25	77
36.3	79
36.35	75
36.4	80
36.45	74
36.5	79
36.55	62
36.6	78
36.65	94
36.7	76
36.75	83
36.8	68
36.85	82
36.9	84
36.95	72
37	85
37.05	89
37.1	78
37.15	84
37.2	86
37.25	67
37.3	88
37.35	63
37.4	67
37.45	67
37.5	88
37.55	64
37.6	74
37.65	73
37.7	87
37.75	84
37.8	82
37.85	70
37.9	64
37.95	67
38	78
38.05	77
38.1	81
38.15	87
38.2	130
38.25	189
38.3	247
38.35	533
38.4	928
38.45	992
38.5	822
38.55	521
38.6	277
38.65	144
38.7	115
38.75	102
38.8	103
38.85	91
38.9	95
38.95	58
39	80
39.05	93
39.1	91
39.15	61
39.2	76
39.25	88
39.3	79
39.35	78
39.4	68
39.45	67
39.5	92
39.55	79
39.6	63
39.65	76
39.7	75
39.75	73
39.8	59
39.85	75
39.9	75
39.95	69
40	70
40.05	64
40.1	90
40.15	83
40.2	81
40.25	82
40.3	64
40.35	59
40.4	60
40.45	73
40.5	66
40.55	76
40.6	69
40.65	56
40.7	70
40.75	75
40.8	79
40.85	69
40.9	77
40.95	77
41	77
41.05	65
41.1	80
41.15	79
41.2	69
41.25	78
41.3	77
41.35	69
41.4	89
41.45	83
41.5	77
41.55	59
41.6	57
41.65	61
41.7	59
41.75	54
41.8	68
41.85	61
41.9	73
41.95	71
42	76
42.05	82
42.1	78
42.15	66
42.2	59
42.25	74
42.3	62
42.35	65
42.4	63
42.45	70
42.5	61
42.55	55
42.6	68
42.65	68
42.7	68
42.75	76
42.8	75
42.85	79
42.9	71
42.95	68
43	84
43.05	77
43.1	63
43.15	77
43.2	61
43.25	75
43.3	73
43.35	68
43.4	75
43.45	80
43.5	68
43.55	77
43.6	71
43.65	74
43.7	77
43.75	82
43.8	82
43.85	62
43.9	82
43.95	80
44	91
44.05	81
44.1	104
44.15	81
44.2	85
44.25	90
44.3	84
44.35	120
44.4	111
44.45	131
44.5	195
44.55	396
44.6	683
44.65	886
44.7	891
44.75	707
44.8	525
44.85	287
44.9	193
44.95	127
45	90
45.05	104
45.1	96
45.15	81
45.2	68
45.25	83
45.3	93
45.35	104
45.4	94
45.45	94
45.5	85
45.55	85
45.6	83
45.65	95
45.7	91
45.75	92
45.8	98
45.85	82
45.9	93
45.95	75
46	94
46.05	94
46.1	96
46.15	82
46.2	84
46.25	80
46.3	78
46.35	83
46.4	76
46.45	96
46.5	61
46.55	80
46.6	84
46.65	69
46.7	89
46.75	85
46.8	68
46.85	72
46.9	77
46.95	92
47	68
47.05	83
47.1	86
47.15	82
47.2	70
47.25	69
47.3	72
47.35	76
47.4	81
47.45	94
47.5	75
47.55	76
47.6	88
47.65	76
47.7	66
47.75	95
47.8	75
47.85	70
47.9	80
47.95	67
48	68
48.05	60
48.1	69
48.15	74
48.2	76
48.25	71
48.3	64
48.35	62
48.4	50
48.45	69
48.5	63
48.55	46
48.6	67
48.65	52
48.7	62
48.75	68
48.8	54
48.85	53
48.9	63
48.95	57
49	49
49.05	53
49.1	60
49.15	43
49.2	61
49.25	53
49.3	57
49.35	70
49.4	49
49.45	76
49.5	55
49.55	66
49.6	64
49.65	69
49.7	56
49.75	54
49.8	59
49.85	67
49.9	62
49.95	45
50	61
50.05	66
50.1	69
50.15	54
50.2	56
50.25	49
50.3	57
50.35	63
50.4	61
50.45	64
50.5	66
50.55	73
50.6	65
50.65	48
50.7	51
50.75	58
50.8	67
50.85	56
50.9	63
50.95	59
51	54
51.05	59
51.1	70
51.15	47
51.2	48
51.25	50
51.3	60
51.35	47
51.4	67
51.45	48
51.5	55
51.55	60
51.6	50
51.65	50
51.7	44
51.75	58
51.8	47
51.85	52
51.9	59
51.95	70
52	59
52.05	52
52.1	44
52.15	53
52.2	57
52.25	75
52.3	81
52.35	57
52.4	61
52.45	51
52.5	69
52.55	68
52.6	61
52.65	57
52.7	60
52.75	68
52.8	67
52.85	74
52.9	60
52.95	67
53	75
53.05	57
53.1	77
53.15	60
53.2	82
53.25	75
53.3	74
53.35	69
53.4	70
53.45	66
53.5	66
53.55	49
53.6	77
53.65	69
53.7	62
53.75	54
53.8	50
53.85	55
53.9	62
53.95	65
54	58
54.05	54
54.1	59
54.15	72
54.2	56
54.25	54
54.3	52
54.35	61
54.4	52
54.45	35
54.5	67
54.55	55
54.6	47
54.65	49
54.7	38
54.75	51
54.8	52
54.85	70
54.9	38
54.95	48
55	45
55.05	52
55.1	55
55.15	48
55.2	55
55.25	54
55.3	56
55.35	63
55.4	49
55.45	61
55.5	56
55.55	56
55.6	34
55.65	56
55.7	53
55.75	52
55.8	33
55.85	51
55.9	47
55.95	42
56	45
56.05	51
56.1	47
56.15	52
56.2	54
56.25	50
56.3	57
56.35	49
56.4	48
56.45	53
56.5	58
56.55	47
56.6	52
56.65	43
56.7	50
56.75	40
56.8	49
56.85	50
56.9	48
56.95	44
57	48
57.05	44
57.1	48
57.15	44
57.2	39
57.25	34
57.3	37
57.35	48
57.4	45
57.45	47
57.5	46
57.55	56
57.6	49
57.65	39
57.7	40
57.75	47
57.8	44
57.85	40
57.9	45
57.95	51
58	52
58.05	49
58.1	48
58.15	47
58.2	47
58.25	61
58.3	61
58.35	38
58.4	47
58.45	50
58.5	38
58.55	58
58.6	50
58.65	49
58.7	48
58.75	46
58.8	41
58.85	39
58.9	42
58.95	47
59	36
59.05	25
59.1	45
59.15	40
59.2	45
59.25	43
59.3	37
59.35	48
59.4	30
59.45	25
59.5	35
59.55	43
59.6	38
59.65	38
59.7	47
59.75	37
59.8	36
59.85	40
59.9	37
59.95	40
60	34
60.05	44
60.1	27
60.15	36
60.2	38
60.25	36
60.3	38
60.35	29
60.4	39
60.45	38
60.5	42
60.55	40
60.6	33
60.65	26
60.7	39
60.75	35
60.8	35
60.85	43
60.9	33
60.95	36
61	39
61.05	44
61.1	38
61.15	36
61.2	35
61.25	35
61.3	30
61.35	32
61.4	28
61.45	29
61.5	39
61.55	41
61.6	38
61.65	34
61.7	36
61.75	38
61.8	31
61.85	29
61.9	39
61.95	34
62	38
62.05	36
62.1	26
62.15	40
62.2	36
62.25	40
62.3	34
62.35	30
62.4	33
62.45	40
62.5	34
62.55	25
62.6	28
62.65	33
62.7	26
62.75	33
62.8	50
62.85	32
62.9	37
62.95	32
63	43
63.05	31
63.1	41
63.15	32
63.2	33
63.25	33
63.3	38
63.35	41
63.4	32
63.45	40
63.5	40
63.55	41
63.6	35
63.65	42
63.7	42
63.75	40
63.8	40
63.85	37
63.9	34
63.95	33
64	45
64.05	38
64.1	38
64.15	46
64.2	54
64.25	48
64.3	41
64.35	35
64.4	53
64.45	49
64.5	38
64.55	41
64.6	40
64.65	35
64.7	39
64.75	49
64.8	39
64.85	45
64.9	53
64.95	80
65	111
65.05	117
65.1	104
65.15	99
65.2	95
65.25	87
65.3	61
65.35	66
65.4	51
65.45	57
65.5	38
65.55	29
65.6	28
65.65	24
65.7	33
65.75	34
65.8	49
65.85	36
65.9	39
65.95	43
66	30
66.05	38
66.1	34
66.15	35
66.2	35
66.25	34
66.3	29
66.35	34
66.4	42
66.45	34
66.5	28
66.55	33
66.6	33
66.65	42
66.7	27
66.75	21
66.8	34
66.85	35
66.9	34
66.95	33
67	20
67.05	31
67.1	26
67.15	31
67.2	35
67.25	33
67.3	32
67.35	27
67.4	25
67.45	32
67.5	34
67.55	36
67.6	38
67.65	37
67.7	18
67.75	36
67.8	23
67.85	27
67.9	33
67.95	28
68	38
68.05	24
68.1	28
68.15	34
68.2	28
68.25	40
68.3	25
68.35	33
68.4	32
68.45	42
68.5	25
68.55	44
68.6	26
68.65	33
68.7	33
68.75	29
68.8	28
68.85	33
68.9	33
68.95	29
69	34
69.05	36
69.1	43
69.15	35
69.2	36
69.25	29
69.3	41
69.35	16
69.4	43
69.45	35
69.5	35
69.55	31
69.6	18
69.65	38
69.7	38
69.75	35
69.8	38
69.85	39
69.9	34
69.95	27
70	30
70.05	31
70.1	39
70.15	37
70.2	34
70.25	36
70.3	32
70.35	31
70.4	30
70.45	33
70.5	25
70.55	36
70.6	27
70.65	33
70.7	40
70.75	41
70.8	37
70.85	36
70.9	33
70.95	40
71	23
71.05	34
71.1	33
71.15	33
71.2	30
71.25	36
71.3	33
71.35	41
71.4	33
71.45	31
71.5	41
71.55	32
71.6	35
71.65	31
71.7	25
71.75	44
71.8	25
71.85	44
71.9	27
71.95	31
72	21
72.05	30
72.1	26
72.15	29
72.2	42
72.25	34
72.3	33
72.35	23
72.4	33
72.45	25
72.5	30
72.55	27
72.6	34
72.65	42
72.7	35
72.75	36
72.8	23
72.85	23
72.9	35
72.95	24
73	20
73.05	35
73.1	29
73.15	27
73.2	30
73.25	32
73.3	41
73.35	36
73.4	25
73.45	26
73.5	20
73.55	36
73.6	27
73.65	29
73.7	24
73.75	20
73.8	31
73.85	31
73.9	26
73.95	28
74	31
74.05	22
74.1	47
74.15	35
74.2	27
74.25	26
74.3	26
74.35	24
74.4	33
74.45	14
74.5	32
74.55	23
74.6	25
74.65	42
74.7	28
74.75	25
74.8	30
74.85	35
74.9	22
74.95	19
75	26
75.05	21
75.1	30
75.15	21
75.2	29
75.25	40
75.3	32
75.35	30
75.4	24
75.45	32
75.5	22
75.55	23
75.6	30
75.65	22
75.7	30
75.75	30
75.8	36
75.85	34
75.9	33
75.95	25
76	21
76.05	23
76.1	28
76.15	23
76.2	23
76.25	22
76.3	24
76.35	34
76.4	36
76.45	27
76.5	26
76.55	26
76.6	33
76.65	21
76.7	18
76.75	22
76.8	35
76.85	28
76.9	27
76.95	32
77	26
77.05	33
77.1	28
77.15	31
77.2	28
77.25	27
77.3	32
77.35	30
77.4	25
77.45	37
77.5	34
77.55	29
77.6	44
77.65	29
77.7	32
77.75	31
77.8	52
77.85	29
77.9	38
77.95	43
78	58
78.05	78
78.1	118
78.15	169
78.2	179
78.25	155
78.3	107
78.35	110
78.4	128
78.45	131
78.5	90
78.55	54
78.6	49
78.65	40
78.7	37
78.75	25
78.8	26
78.85	36
78.9	30
78.95	27
79	35
79.05	28
79.1	32
79.15	22
79.2	33
79.25	28
79.3	27
79.35	29
79.4	36
79.45	35
79.5	29
79.55	33
79.6	25
79.65	27
79.7	37
79.75	26
79.8	34
79.85	34
79.9	26
79.95	26
80	36